{
  "type": "transaction-response",
  "resourceType": "Bundle",
  "entry": [
    {
      "resource": {
        "category": [
          {
            "text": "Outpatient Referral",
            "coding": [
              {
                "code": "124",
                "system": "http://terminology.hl7.org/CodeSystem/service-category",
                "display": "General Medicine"
              }
            ]
          }
        ],
        "meta": {
          "profile": [
            "http://philcore.fhirpath.io/StructureDefinition/ph-service-request"
          ],
          "lastUpdated": "2025-04-29T07:10:53.062994Z",
          "versionId": "90363",
          "extension": [
            {
              "url": "https://aidbox.app/ex/createdAt",
              "valueInstant": "2025-04-29T07:10:53.062994Z"
            }
          ]
        },
        "supportingInfo": [
          { "reference": "Observation/ph-observation-vital-signs" }
        ],
        "encounter": { "reference": "Encounter/ph-encounter-referral" },
        "patientInstruction": "Please bring all previous medical records and test results.",
        "reasonCode": [
          {
            "text": "Fever for 3 days, persistent cough",
            "coding": [
              {
                "code": "386661006",
                "system": "http://snomed.info/sct",
                "display": "Fever"
              }
            ]
          }
        ],
        "authoredOn": "2025-03-10T09:00:00+08:00",
        "resourceType": "ServiceRequest",
        "note": [
          {
            "text": "Patient was initially seen at Medical Center Manila with a 3-day history of fever. Requiring cardiology evaluation."
          }
        ],
        "extension": [
          {
            "url": "http://philcore.fhirpath.io/StructureDefinition/ph-service-request-priority",
            "valueCodeableConcept": {
              "coding": [
                {
                  "code": "ROUTINE",
                  "system": "http://philcore.fhirpath.io/CodeSystem/ph-service-request-priority",
                  "display": "Routine - Next regular schedule"
                }
              ]
            }
          },
          {
            "url": "http://philcore.fhirpath.io/StructureDefinition/ph-service-request-authorization",
            "extension": [
              {
                "url": "authorizationNumber",
                "valueString": "AUTH-2025-78901"
              },
              {
                "url": "authorizationDate",
                "valueDateTime": "2025-03-10T09:00:00+08:00"
              },
              {
                "url": "authorizingPerson",
                "valueReference": {
                  "display": "Dr. Maria Santos",
                  "reference": "Practitioner/ph-practitioner-referrer"
                }
              },
              {
                "url": "authorizingOrganization",
                "valueReference": {
                  "display": "Medical Center Manila",
                  "reference": "Organization/ph-organization-referrer"
                }
              }
            ]
          }
        ],
        "requester": {
          "display": "Dr. Maria Santos",
          "reference": "Practitioner/ph-practitioner-referrer"
        },
        "priority": "routine",
        "status": "active",
        "id": "ph-service-request-referral",
        "code": {
          "text": "Cardiology consultation for persistent fever",
          "coding": [
            {
              "code": "11429006",
              "system": "http://snomed.info/sct",
              "display": "Consultation"
            }
          ]
        },
        "identifier": [
          {
            "value": "REF-2025-34567",
            "system": "http://mcm.example.com/identifier/referral"
          }
        ],
        "intent": "order",
        "occurrenceDateTime": "2025-03-10",
        "subject": {
          "display": "Juan Dela Cruz",
          "reference": "Patient/ph-patient-referral"
        },
        "performer": [
          {
            "display": "Dr. Ricardo Santos",
            "reference": "Practitioner/ph-practitioner-receiver"
          }
        ],
        "reasonReference": [
          {
            "display": "Acute viral upper respiratory infection",
            "reference": "Condition/ph-condition-referral"
          }
        ]
      },
      "response": {
        "etag": "90363",
        "location": "/ServiceRequest/ph-service-request-referral/_history/90363",
        "status": "201",
        "lastModified": "2025-04-29T07:10:53.062994Z"
      }
    },
    {
      "resource": {
        "address": [
          {
            "use": "home",
            "city": "Manila",
            "line": ["123 Rizal Street", "Barangay San Jose"],
            "type": "physical",
            "state": "Metro Manila",
            "country": "PH",
            "district": "First District",
            "postalCode": "1000"
          }
        ],
        "meta": {
          "profile": [
            "http://philcore.fhirpath.io/StructureDefinition/ph-patient"
          ],
          "lastUpdated": "2025-04-29T07:10:53.062994Z",
          "versionId": "90365",
          "extension": [
            {
              "url": "https://aidbox.app/ex/createdAt",
              "valueInstant": "2025-04-29T07:10:53.062994Z"
            }
          ]
        },
        "name": [
          {
            "use": "official",
            "given": ["Juan", "Santos"],
            "family": "Dela Cruz"
          }
        ],
        "birthDate": "1990-01-15",
        "resourceType": "Patient",
        "extension": [
          {
            "url": "http://philcore.fhirpath.io/StructureDefinition/ph-religion",
            "valueCodeableConcept": {
              "coding": [
                {
                  "code": "RC",
                  "system": "http://philcore.fhirpath.io/CodeSystem/ph-religion",
                  "display": "Roman Catholic"
                }
              ]
            }
          },
          {
            "url": "http://philcore.fhirpath.io/StructureDefinition/ph-nationality",
            "valueCodeableConcept": {
              "coding": [
                {
                  "code": "PH",
                  "system": "urn:iso:std:iso:3166",
                  "display": "Filipino"
                }
              ]
            }
          }
        ],
        "active": true,
        "id": "ph-patient-referral",
        "identifier": [
          {
            "type": {
              "text": "PhilHealth ID",
              "coding": [
                {
                  "code": "PLAC",
                  "system": "http://terminology.hl7.org/CodeSystem/v2-0203",
                  "display": "PhilHealth Member Identification Number"
                }
              ]
            },
            "value": "010203040506",
            "system": "http://philhealth.gov.ph/identifier/memberid"
          }
        ],
        "telecom": [
          { "use": "mobile", "value": "+639171234567", "system": "phone" }
        ],
        "gender": "male"
      },
      "response": {
        "etag": "90365",
        "location": "/Patient/ph-patient-referral/_history/90365",
        "status": "201",
        "lastModified": "2025-04-29T07:10:53.062994Z"
      }
    },
    {
      "resource": {
        "meta": {
          "profile": [
            "http://philcore.fhirpath.io/StructureDefinition/ph-practitioner"
          ],
          "lastUpdated": "2025-04-29T07:10:53.062994Z",
          "versionId": "90367",
          "extension": [
            {
              "url": "https://aidbox.app/ex/createdAt",
              "valueInstant": "2025-04-29T07:10:53.062994Z"
            }
          ]
        },
        "name": [
          {
            "use": "official",
            "given": ["Maria", "Luisa"],
            "family": "Santos",
            "prefix": ["Dr."]
          }
        ],
        "active": true,
        "identifier": [
          {
            "type": {
              "text": "PRC License",
              "coding": [
                {
                  "code": "MD",
                  "system": "http://terminology.hl7.org/CodeSystem/v2-0203",
                  "display": "Medical License Number"
                }
              ]
            },
            "value": "0012345",
            "system": "http://prc.gov.ph/identifier/license"
          }
        ],
        "qualification": [
          {
            "code": {
              "coding": [
                {
                  "code": "MD",
                  "system": "http://philcore.fhirpath.io/CodeSystem/ph-professional-qualification",
                  "display": "Doctor of Medicine"
                }
              ]
            }
          }
        ],
        "id": "ph-practitioner-referrer",
        "resourceType": "Practitioner"
      },
      "response": {
        "etag": "90367",
        "location": "/Practitioner/ph-practitioner-referrer/_history/90367",
        "status": "201",
        "lastModified": "2025-04-29T07:10:53.062994Z"
      }
    },
    {
      "resource": {
        "meta": {
          "profile": [
            "http://philcore.fhirpath.io/StructureDefinition/ph-practitioner"
          ],
          "lastUpdated": "2025-04-29T07:10:53.062994Z",
          "versionId": "90369",
          "extension": [
            {
              "url": "https://aidbox.app/ex/createdAt",
              "valueInstant": "2025-04-29T07:10:53.062994Z"
            }
          ]
        },
        "name": [
          {
            "use": "official",
            "given": ["Ricardo"],
            "family": "Santos",
            "prefix": ["Dr."]
          }
        ],
        "active": true,
        "identifier": [
          {
            "value": "PGH-12345",
            "system": "http://pgh.example.com/identifier/practitioners"
          }
        ],
        "qualification": [
          {
            "code": {
              "coding": [
                {
                  "code": "CARDIO",
                  "system": "http://philcore.fhirpath.io/CodeSystem/ph-professional-qualification",
                  "display": "Cardiology"
                }
              ]
            }
          }
        ],
        "id": "ph-practitioner-receiver",
        "resourceType": "Practitioner"
      },
      "response": {
        "etag": "90369",
        "location": "/Practitioner/ph-practitioner-receiver/_history/90369",
        "status": "201",
        "lastModified": "2025-04-29T07:10:53.062994Z"
      }
    },
    {
      "resource": {
        "address": [
          {
            "use": "work",
            "city": "Manila",
            "line": ["1234 Taft Avenue"],
            "type": "both",
            "state": "Metro Manila",
            "country": "PH",
            "postalCode": "1000"
          }
        ],
        "meta": {
          "profile": [
            "http://philcore.fhirpath.io/StructureDefinition/ph-organization"
          ],
          "lastUpdated": "2025-04-29T07:10:53.062994Z",
          "versionId": "90371",
          "extension": [
            {
              "url": "https://aidbox.app/ex/createdAt",
              "valueInstant": "2025-04-29T07:10:53.062994Z"
            }
          ]
        },
        "name": "Medical Center Manila",
        "type": [
          {
            "coding": [
              {
                "code": "HOSP",
                "system": "http://philcore.fhirpath.io/CodeSystem/ph-organization-type",
                "display": "Hospital"
              }
            ]
          }
        ],
        "resourceType": "Organization",
        "active": true,
        "id": "ph-organization-referrer",
        "identifier": [
          {
            "type": {
              "text": "DOH License Number",
              "coding": [
                {
                  "code": "XX",
                  "system": "http://terminology.hl7.org/CodeSystem/v2-0203",
                  "display": "Organization Identifier"
                }
              ]
            },
            "value": "13-0001-22-H3-2",
            "system": "http://doh.gov.ph/identifier/facility"
          }
        ],
        "telecom": [
          { "use": "work", "value": "+6328876543", "system": "phone" }
        ]
      },
      "response": {
        "etag": "90371",
        "location": "/Organization/ph-organization-referrer/_history/90371",
        "status": "201",
        "lastModified": "2025-04-29T07:10:53.062994Z"
      }
    },
    {
      "resource": {
        "address": [
          {
            "use": "work",
            "city": "Manila",
            "line": ["Taft Avenue", "Ermita"],
            "country": "PH",
            "postalCode": "1000"
          }
        ],
        "meta": {
          "profile": [
            "http://philcore.fhirpath.io/StructureDefinition/ph-organization"
          ],
          "lastUpdated": "2025-04-29T07:10:53.062994Z",
          "versionId": "90373",
          "extension": [
            {
              "url": "https://aidbox.app/ex/createdAt",
              "valueInstant": "2025-04-29T07:10:53.062994Z"
            }
          ]
        },
        "name": "Philippine General Hospital",
        "type": [
          {
            "coding": [
              {
                "code": "HOSP",
                "system": "http://philcore.fhirpath.io/CodeSystem/ph-organization-type",
                "display": "Hospital"
              }
            ]
          }
        ],
        "resourceType": "Organization",
        "active": true,
        "id": "ph-organization-receiver",
        "identifier": [
          {
            "value": "13-0002-22-H3-1",
            "system": "http://doh.gov.ph/identifier/facility"
          }
        ]
      },
      "response": {
        "etag": "90373",
        "location": "/Organization/ph-organization-receiver/_history/90373",
        "status": "201",
        "lastModified": "2025-04-29T07:10:53.062994Z"
      }
    },
    {
      "resource": {
        "diagnosis": [
          {
            "use": {
              "coding": [
                {
                  "code": "AD",
                  "system": "http://terminology.hl7.org/CodeSystem/diagnosis-role",
                  "display": "Admission diagnosis"
                }
              ]
            },
            "rank": 1,
            "condition": {
              "display": "Acute viral upper respiratory infection",
              "reference": "Condition/ph-condition-referral"
            }
          }
        ],
        "meta": {
          "profile": [
            "http://philcore.fhirpath.io/StructureDefinition/ph-encounter"
          ],
          "lastUpdated": "2025-04-29T07:10:53.062994Z",
          "versionId": "90375",
          "extension": [
            {
              "url": "https://aidbox.app/ex/createdAt",
              "valueInstant": "2025-04-29T07:10:53.062994Z"
            }
          ]
        },
        "serviceProvider": {
          "display": "Medical Center Manila",
          "reference": "Organization/ph-organization-referrer"
        },
        "reasonCode": [
          {
            "text": "Fever for 3 days, persistent cough",
            "coding": [
              {
                "code": "386661006",
                "system": "http://snomed.info/sct",
                "display": "Fever"
              }
            ]
          }
        ],
        "type": [
          {
            "coding": [
              {
                "code": "270427003",
                "system": "http://snomed.info/sct",
                "display": "Patient-initiated encounter"
              }
            ]
          }
        ],
        "participant": [
          {
            "type": [
              {
                "coding": [
                  {
                    "code": "ATND",
                    "system": "http://terminology.hl7.org/CodeSystem/v3-ParticipationType",
                    "display": "attender"
                  }
                ]
              }
            ],
            "individual": {
              "display": "Dr. Maria Santos",
              "reference": "Practitioner/ph-practitioner-referrer"
            }
          }
        ],
        "resourceType": "Encounter",
        "status": "finished",
        "id": "ph-encounter-referral",
        "class": {
          "code": "AMB",
          "system": "http://terminology.hl7.org/CodeSystem/v3-ActCode",
          "display": "ambulatory"
        },
        "period": {
          "end": "2025-03-10T10:30:00+08:00",
          "start": "2025-03-10T09:00:00+08:00"
        },
        "subject": {
          "display": "Juan Dela Cruz",
          "reference": "Patient/ph-patient-referral"
        }
      },
      "response": {
        "etag": "90375",
        "location": "/Encounter/ph-encounter-referral/_history/90375",
        "status": "201",
        "lastModified": "2025-04-29T07:10:53.062994Z"
      }
    },
    {
      "resource": {
        "category": [
          {
            "coding": [
              {
                "code": "encounter-diagnosis",
                "system": "http://terminology.hl7.org/CodeSystem/condition-category",
                "display": "Encounter Diagnosis"
              }
            ]
          }
        ],
        "clinicalStatus": {
          "coding": [
            {
              "code": "active",
              "system": "http://terminology.hl7.org/CodeSystem/condition-clinical",
              "display": "Active"
            }
          ]
        },
        "meta": {
          "profile": [
            "http://philcore.fhirpath.io/StructureDefinition/ph-condition"
          ],
          "lastUpdated": "2025-04-29T07:10:53.062994Z",
          "versionId": "90377",
          "extension": [
            {
              "url": "https://aidbox.app/ex/createdAt",
              "valueInstant": "2025-04-29T07:10:53.062994Z"
            }
          ]
        },
        "encounter": { "reference": "Encounter/ph-encounter-referral" },
        "evidence": [
          {
            "code": [
              {
                "coding": [
                  {
                    "code": "386661006",
                    "system": "http://snomed.info/sct",
                    "display": "Fever"
                  }
                ]
              },
              {
                "coding": [
                  {
                    "code": "49727002",
                    "system": "http://snomed.info/sct",
                    "display": "Cough"
                  }
                ]
              }
            ],
            "detail": [
              {
                "display": "Temperature 38.5°C",
                "reference": "Observation/ph-observation-vital-signs"
              }
            ]
          }
        ],
        "resourceType": "Condition",
        "asserter": {
          "display": "Dr. Maria Santos",
          "reference": "Practitioner/ph-practitioner-referrer"
        },
        "recordedDate": "2025-03-10T09:30:00+08:00",
        "id": "ph-condition-referral",
        "recorder": {
          "display": "Dr. Maria Santos",
          "reference": "Practitioner/ph-practitioner-referrer"
        },
        "severity": {
          "coding": [
            {
              "code": "6736007",
              "system": "http://snomed.info/sct",
              "display": "Moderate"
            }
          ]
        },
        "code": {
          "text": "Acute viral upper respiratory infection",
          "coding": [
            {
              "code": "54150009",
              "system": "http://snomed.info/sct",
              "display": "Acute viral upper respiratory infection"
            },
            {
              "code": "J06.9",
              "system": "http://hl7.org/fhir/sid/icd-10",
              "display": "Acute upper respiratory infection, unspecified"
            }
          ]
        },
        "onsetDateTime": "2025-03-07T00:00:00+08:00",
        "verificationStatus": {
          "coding": [
            {
              "code": "confirmed",
              "system": "http://terminology.hl7.org/CodeSystem/condition-ver-status",
              "display": "Confirmed"
            }
          ]
        },
        "subject": {
          "display": "Juan Dela Cruz",
          "reference": "Patient/ph-patient-referral"
        }
      },
      "response": {
        "etag": "90377",
        "location": "/Condition/ph-condition-referral/_history/90377",
        "status": "201",
        "lastModified": "2025-04-29T07:10:53.062994Z"
      }
    },
    {
      "resource": {
        "category": [
          {
            "coding": [
              {
                "code": "vital-signs",
                "system": "http://terminology.hl7.org/CodeSystem/observation-category",
                "display": "Vital Signs"
              }
            ]
          }
        ],
        "meta": {
          "profile": [
            "http://philcore.fhirpath.io/StructureDefinition/ph-observation"
          ],
          "lastUpdated": "2025-04-29T07:10:53.062994Z",
          "versionId": "90379",
          "extension": [
            {
              "url": "https://aidbox.app/ex/createdAt",
              "valueInstant": "2025-04-29T07:10:53.062994Z"
            }
          ]
        },
        "encounter": { "reference": "Encounter/ph-encounter-referral" },
        "resourceType": "Observation",
        "component": [
          {
            "code": {
              "coding": [
                {
                  "code": "8310-5",
                  "system": "http://loinc.org",
                  "display": "Body temperature"
                }
              ]
            },
            "valueQuantity": {
              "code": "Cel",
              "unit": "°C",
              "value": 38.5,
              "system": "http://unitsofmeasure.org"
            }
          },
          {
            "code": {
              "coding": [
                {
                  "code": "8867-4",
                  "system": "http://loinc.org",
                  "display": "Heart rate"
                }
              ]
            },
            "valueQuantity": {
              "code": "/min",
              "unit": "beats/minute",
              "value": 88,
              "system": "http://unitsofmeasure.org"
            }
          },
          {
            "code": {
              "coding": [
                {
                  "code": "8480-6",
                  "system": "http://loinc.org",
                  "display": "Systolic blood pressure"
                }
              ]
            },
            "valueQuantity": {
              "code": "mm[Hg]",
              "unit": "mmHg",
              "value": 120,
              "system": "http://unitsofmeasure.org"
            }
          },
          {
            "code": {
              "coding": [
                {
                  "code": "8462-4",
                  "system": "http://loinc.org",
                  "display": "Diastolic blood pressure"
                }
              ]
            },
            "valueQuantity": {
              "code": "mm[Hg]",
              "unit": "mmHg",
              "value": 80,
              "system": "http://unitsofmeasure.org"
            }
          },
          {
            "code": {
              "coding": [
                {
                  "code": "9279-1",
                  "system": "http://loinc.org",
                  "display": "Respiratory rate"
                }
              ]
            },
            "valueQuantity": {
              "code": "/min",
              "unit": "breaths/minute",
              "value": 20,
              "system": "http://unitsofmeasure.org"
            }
          },
          {
            "code": {
              "coding": [
                {
                  "code": "2708-6",
                  "system": "http://loinc.org",
                  "display": "Oxygen saturation in Arterial blood"
                }
              ]
            },
            "valueQuantity": {
              "code": "%",
              "unit": "%",
              "value": 98,
              "system": "http://unitsofmeasure.org"
            }
          },
          {
            "code": {
              "coding": [
                {
                  "code": "29463-7",
                  "system": "http://loinc.org",
                  "display": "Body weight"
                }
              ]
            },
            "valueQuantity": {
              "code": "kg",
              "unit": "kg",
              "value": 70,
              "system": "http://unitsofmeasure.org"
            }
          }
        ],
        "effectiveDateTime": "2025-03-10T09:15:00+08:00",
        "status": "final",
        "id": "ph-observation-vital-signs",
        "code": {
          "text": "Vital Signs Panel",
          "coding": [
            {
              "code": "85353-1",
              "system": "http://loinc.org",
              "display": "Vital signs, weight, height, BMI, head circumference, and blood pressure panel"
            }
          ]
        },
        "issued": "2025-03-10T09:20:00+08:00",
        "subject": {
          "display": "Juan Dela Cruz",
          "reference": "Patient/ph-patient-referral"
        },
        "performer": [
          {
            "display": "Dr. Maria Santos",
            "reference": "Practitioner/ph-practitioner-referrer"
          }
        ]
      },
      "response": {
        "etag": "90379",
        "location": "/Observation/ph-observation-vital-signs/_history/90379",
        "status": "201",
        "lastModified": "2025-04-29T07:10:53.062994Z"
      }
    },
    {
      "resource": {
        "category": [
          {
            "text": "Referral Communication",
            "coding": [
              {
                "code": "notification",
                "system": "http://terminology.hl7.org/CodeSystem/communication-category",
                "display": "Notification"
              }
            ]
          }
        ],
        "received": "2025-03-10T09:15:00+08:00",
        "payload": [
          {
            "contentReference": {
              "reference": "ServiceRequest/ph-service-request-referral"
            }
          }
        ],
        "meta": {
          "lastUpdated": "2025-04-29T07:10:53.062994Z",
          "versionId": "90381",
          "extension": [
            {
              "url": "https://aidbox.app/ex/createdAt",
              "valueInstant": "2025-04-29T07:10:53.062994Z"
            }
          ]
        },
        "recipient": [
          {
            "display": "Dr. Ricardo Santos",
            "reference": "Practitioner/ph-practitioner-receiver"
          },
          {
            "display": "Philippine General Hospital",
            "reference": "Organization/ph-organization-receiver"
          }
        ],
        "resourceType": "Communication",
        "sent": "2025-03-10T09:00:00+08:00",
        "note": [
          {
            "text": "Referral was acknowledged and accepted by receiving facility."
          }
        ],
        "status": "completed",
        "id": "ph-communication-referral",
        "sender": {
          "display": "Dr. Maria Santos",
          "reference": "Practitioner/ph-practitioner-referrer"
        },
        "subject": {
          "display": "Juan Dela Cruz",
          "reference": "Patient/ph-patient-referral"
        }
      },
      "response": {
        "etag": "90381",
        "location": "/Communication/ph-communication-referral/_history/90381",
        "status": "201",
        "lastModified": "2025-04-29T07:10:53.062994Z"
      }
    }
  ],
  "id": "90383"
}
